AccelX,AccelY,AccelZ,GyroX,GyroY,GyroZ
9.83,0.13,-0.21,-0.03,-0.02,-0.02
9.8,0.12,-0.24,-0.02,-0.02,-0.02
9.81,0.13,-0.21,-0.03,-0.02,-0.02
9.81,0.14,-0.22,-0.03,-0.02,-0.02
9.84,0.14,-0.23,-0.03,-0.02,-0.02
9.84,0.14,-0.23,-0.03,-0.02,-0.02
9.79,0.14,-0.25,-0.03,-0.02,-0.02
9.82,0.11,-0.23,-0.03,-0.02,-0.01
9.79,0.14,-0.22,-0.02,-0.02,-0.02
9.83,0.11,-0.21,-0.03,-0.02,-0.02
9.82,0.13,-0.22,-0.03,-0.02,-0.02
9.81,0.14,-0.24,-0.03,-0.02,-0.02
9.81,0.16,-0.22,-0.03,-0.02,-0.02
9.79,0.11,-0.2,-0.03,-0.02,-0.02
9.82,0.12,-0.2,-0.03,-0.02,-0.01
9.81,0.13,-0.22,-0.02,-0.02,-0.01
9.83,0.12,-0.24,-0.02,-0.02,-0.01
9.82,0.12,-0.22,-0.02,-0.02,-0.01
9.79,0.14,-0.21,-0.02,-0.02,-0.02
9.81,0.12,-0.2,-0.02,-0.02,-0.02
9.79,0.13,-0.22,-0.03,-0.02,-0.02
9.79,0.13,-0.22,-0.02,-0.02,-0.02
9.84,0.14,-0.23,-0.03,-0.02,-0.01
9.7,0.13,-0.19,-0.03,-0.03,-0.03
9.8,0.11,-0.2,-0.03,-0.02,-0.01
9.72,0.96,0.7,-0.23,-0.02,-0.02
9.96,0.04,0.06,-0.0,-0.03,-0.03
9.84,0.62,-0.69,0.25,0.01,-0.01
9.85,0.23,-0.93,0.4,-0.01,-0.03
9.74,0.12,-0.8,0.45,0.02,-0.03
9.75,0.34,-1.01,0.64,0.0,-0.03
9.78,-0.14,-0.52,0.75,-0.0,-0.05
9.86,-1.17,-0.1,0.8,-0.01,-0.04
9.88,-1.18,-0.12,0.79,-0.01,-0.04
9.81,-0.56,-0.13,0.71,-0.01,-0.04
9.75,-0.7,-0.36,0.55,-0.02,-0.03
9.85,-1.17,-0.33,0.34,-0.02,-0.02
9.8,-1.3,-0.14,0.14,-0.03,-0.02
9.76,-1.19,0.45,-0.09,-0.03,-0.01
9.92,-0.28,1.73,-0.16,-0.03,-0.02
9.76,0.1,2.71,0.06,-0.04,-0.02
9.74,0.14,1.98,0.3,-0.04,-0.03
9.8,0.91,1.0,0.44,-0.05,-0.03
9.72,1.32,0.07,0.49,-0.06,-0.04
9.84,1.68,-1.19,0.42,-0.03,-0.03
9.72,2.09,-1.9,0.22,-0.04,-0.02
9.77,2.04,-2.29,-0.0,-0.03,-0.01
9.77,1.93,-1.74,-0.1,-0.05,-0.01
9.73,1.49,-1.4,-0.1,-0.04,-0.01
9.91,1.45,-1.84,-0.07,-0.0,-0.02
9.67,1.31,-1.78,0.07,0.04,-0.04
9.8,-0.11,-2.25,0.09,0.03,-0.03
9.76,-0.33,-2.58,-0.02,0.03,-0.02
9.7,-0.85,-2.29,-0.18,-0.02,-0.02
9.79,-1.1,-2.3,-0.39,-0.0,0.01
9.73,-0.68,-1.5,-0.59,-0.04,0.01
9.85,-0.87,-0.28,-0.71,-0.06,0.01
9.88,-1.07,1.01,-0.66,-0.05,0.0
9.94,-1.0,2.21,-0.54,-0.06,-0.0
9.88,-0.78,2.68,-0.37,-0.07,-0.01
9.9,-0.36,2.81,-0.17,-0.05,-0.02
9.86,0.01,1.96,-0.01,-0.08,-0.03
9.87,-0.13,0.88,0.03,-0.12,-0.04
9.88,-0.06,1.06,-0.04,-0.09,-0.03
9.89,-0.49,2.14,-0.03,-0.03,-0.02
9.97,-0.76,2.64,0.15,-0.0,-0.02
9.76,-0.93,2.46,0.38,-0.02,-0.04
9.85,-0.89,1.07,0.59,0.0,-0.04
9.87,-0.36,-0.5,0.69,0.06,-0.03
9.77,0.15,-1.95,0.66,0.06,-0.02
9.79,0.71,-3.47,0.52,0.01,-0.03
9.65,1.07,-4.04,0.32,-0.01,-0.02
9.67,1.52,-3.92,0.08,-0.01,-0.01
9.69,1.22,-2.91,-0.05,-0.02,-0.02
9.71,0.92,-2.67,-0.12,-0.01,-0.01
9.8,0.7,-2.99,-0.25,-0.02,-0.01
9.73,0.56,-2.68,-0.43,-0.04,-0.01
9.82,0.54,-1.84,-0.66,-0.06,0.01
9.77,0.36,0.11,-0.76,-0.05,0.01
9.91,-0.31,1.68,-0.69,-0.06,0.01
9.96,-0.44,2.4,-0.5,-0.08,-0.0
9.93,-0.56,2.81,-0.34,-0.06,-0.01
9.93,-0.51,2.67,-0.16,-0.04,-0.02
9.9,-0.74,1.26,-0.05,-0.05,-0.02
9.91,-0.74,1.2,-0.07,-0.04,-0.01
9.86,-0.78,1.57,-0.01,-0.02,-0.01
9.87,-0.91,1.35,0.13,-0.01,-0.02
9.81,-0.5,0.64,0.28,-0.02,-0.03
9.86,-0.11,-0.52,0.37,-0.0,-0.02
9.74,0.67,-1.69,0.36,0.01,-0.03
9.76,1.28,-1.9,0.31,-0.0,-0.03
9.68,1.13,-2.53,0.22,-0.0,-0.02
9.77,1.16,-2.26,0.09,-0.02,-0.01
9.78,1.01,-1.91,0.07,-0.03,-0.02
9.8,0.69,-2.29,0.09,-0.03,-0.02
9.75,0.99,-2.73,-0.11,-0.02,-0.01
9.7,1.14,-2.12,-0.32,-0.0,-0.01
9.76,1.22,-1.13,-0.44,-0.03,-0.0
9.79,0.94,0.07,-0.49,-0.04,-0.0
9.84,0.87,0.85,-0.48,-0.04,-0.01
9.84,0.53,1.34,-0.43,-0.03,-0.01
9.94,0.09,2.02,-0.34,-0.03,-0.01
9.96,-0.26,1.95,-0.23,-0.03,-0.02
9.86,-0.45,1.6,-0.15,-0.03,-0.02
9.83,-0.81,1.06,-0.11,-0.04,-0.02
9.92,-0.94,0.91,-0.13,-0.04,-0.01
9.91,-1.17,1.14,-0.12,-0.04,-0.01
9.87,-1.19,1.21,-0.02,-0.02,-0.02
9.84,-1.36,1.01,0.14,-0.02,-0.02
9.85,-1.09,0.18,0.29,-0.01,-0.03
9.79,-0.92,-0.67,0.36,-0.02,-0.03
9.83,-0.49,-1.25,0.5,-0.0,-0.04
9.69,-0.52,-2.34,0.39,0.01,-0.03
9.66,-0.15,-2.24,0.33,0.02,-0.02
9.8,0.33,-2.07,0.31,-0.0,-0.03
9.82,-0.33,-1.97,0.28,-0.01,-0.03
9.83,0.4,-1.74,0.23,-0.0,-0.03
9.84,0.36,-1.78,0.17,-0.0,-0.02
9.7,0.65,-2.24,0.01,-0.01,-0.02
9.81,1.19,-2.09,-0.26,-0.02,-0.0
9.84,1.19,-0.77,-0.43,-0.02,0.0
9.81,1.15,0.33,-0.4,-0.02,0.0
9.91,1.16,0.45,-0.3,-0.03,-0.0
9.81,1.12,-0.22,-0.27,-0.03,-0.0
9.82,0.96,-0.29,-0.34,-0.04,-0.0
9.74,0.71,-0.21,-0.41,-0.04,0.0
9.86,0.46,-0.26,-0.47,-0.03,0.01
9.94,0.35,-0.23,-0.49,-0.04,0.01
9.76,0.26,0.2,-0.49,-0.04,0.0
9.84,-0.12,0.76,-0.42,-0.04,0.0
9.85,-0.16,0.72,-0.28,-0.02,-0.01
9.85,-0.34,0.42,-0.18,-0.03,-0.01
9.85,-0.35,0.24,-0.15,-0.02,-0.01
9.87,-0.32,-0.09,-0.12,-0.02,-0.01
9.82,-0.16,-0.07,-0.14,-0.03,-0.01
9.82,-0.01,-0.17,-0.12,-0.03,-0.01
9.8,0.1,-0.17,-0.1,-0.03,-0.02
9.8,0.15,-0.48,-0.1,-0.03,-0.01
9.8,0.17,-0.79,-0.18,-0.02,-0.01
9.81,0.24,-0.3,-0.21,-0.02,-0.01
9.83,0.03,0.25,-0.16,-0.02,-0.01
9.81,0.11,0.01,-0.07,-0.02,-0.01
9.84,0.41,-0.15,-0.12,-0.03,-0.01
9.8,0.33,0.0,-0.15,-0.02,-0.01
9.81,0.3,0.11,-0.2,-0.01,-0.01
9.87,0.26,0.65,-0.24,-0.01,-0.01
9.86,0.03,1.47,-0.19,-0.02,-0.01
9.9,-0.27,1.99,-0.02,-0.02,-0.02
9.93,-0.56,1.66,0.17,-0.02,-0.02
9.92,-0.29,0.21,0.3,0.0,-0.04
9.81,-0.11,-0.25,0.24,0.0,-0.03
9.84,-0.09,-0.44,0.21,-0.01,-0.03
9.85,0.08,-0.26,0.19,-0.02,-0.03
9.78,0.04,-0.48,0.25,-0.01,-0.03
9.78,0.24,-1.33,0.3,-0.0,-0.03
9.72,0.4,-2.43,0.24,-0.01,-0.03
9.73,0.57,-2.77,0.09,-0.01,-0.02
9.74,0.38,-2.75,-0.03,-0.03,-0.02
9.79,0.11,-0.79,-0.03,-0.01,-0.02
9.82,0.11,-0.72,0.05,-0.01,-0.02
9.76,0.1,-1.75,0.18,-0.01,-0.03
9.74,0.42,-3.03,0.03,-0.02,-0.02
9.68,0.62,-2.93,-0.19,-0.02,-0.01
9.81,0.56,-2.35,-0.44,-0.04,-0.0
9.83,0.33,-0.88,-0.54,-0.05,0.0
9.76,0.24,0.16,-0.49,-0.03,0.0
9.92,0.12,0.11,-0.43,-0.04,-0.0
9.82,-0.02,0.42,-0.41,-0.04,-0.0
9.84,-0.15,1.02,-0.37,-0.04,-0.01
9.91,-0.26,1.1,-0.28,-0.02,-0.01
9.92,-0.23,1.31,-0.22,-0.02,-0.01
9.85,-0.21,1.49,-0.14,-0.03,-0.01
9.83,-0.23,1.49,-0.05,-0.03,-0.01
9.83,0.1,-0.03,-0.03,-0.04,-0.02
9.84,1.0,0.05,-0.12,-0.04,-0.01
9.83,0.56,0.49,-0.15,-0.03,-0.01
9.85,0.83,0.44,-0.08,-0.0,-0.02
9.83,0.95,-0.07,-0.01,-0.01,-0.02
9.74,0.96,-0.36,-0.02,-0.01,-0.02
9.81,0.79,-0.52,-0.04,-0.02,-0.02
9.77,0.3,-0.7,-0.06,-0.01,-0.02
9.82,0.13,-0.85,-0.11,-0.01,-0.02
9.87,-0.3,-0.49,-0.16,-0.01,-0.02
9.8,-0.78,-0.06,-0.14,-0.04,-0.02
9.8,-1.22,-0.32,-0.1,-0.03,-0.02
9.82,-1.24,-0.57,-0.1,-0.04,-0.02
9.84,-1.35,-0.27,-0.12,-0.03,-0.02
9.87,-1.76,0.51,-0.0,0.01,-0.02
9.9,-1.33,0.31,0.11,0.02,-0.02
9.83,-1.19,0.18,0.17,-0.01,-0.02
9.89,-0.88,0.23,0.2,-0.01,-0.02
9.89,-0.49,0.3,0.27,-0.01,-0.02
9.8,0.04,-0.24,0.34,-0.0,-0.02
9.74,0.67,-1.07,0.34,0.02,-0.03
9.76,0.97,-1.91,0.31,-0.0,-0.03
9.73,1.32,-2.19,0.23,-0.01,-0.02
9.73,1.22,-2.17,0.15,-0.01,-0.02
9.77,1.11,-1.92,0.06,-0.01,-0.02
9.71,1.22,-1.74,-0.04,-0.0,-0.01
9.76,1.24,-1.48,-0.15,-0.03,-0.01
9.79,1.29,-0.92,-0.25,-0.04,-0.01
9.79,1.19,-0.57,-0.36,-0.04,-0.01
9.91,0.89,0.17,-0.44,-0.04,-0.0
9.8,0.61,1.08,-0.41,-0.04,-0.0
9.84,0.37,1.31,-0.33,-0.04,-0.01
9.91,0.18,1.18,-0.26,-0.04,-0.01
9.87,-0.07,1.27,-0.22,-0.03,-0.02
9.88,-0.2,1.19,-0.18,-0.04,-0.01
9.86,-0.3,1.43,-0.13,-0.03,-0.02
9.85,-0.5,1.83,-0.04,-0.02,-0.02
9.89,-0.85,2.27,0.1,-0.03,-0.02
9.94,-0.9,2.21,0.31,-0.01,-0.03
9.83,-1.09,1.62,0.5,0.0,-0.04
9.75,-0.69,0.8,0.64,0.02,-0.05
9.8,-0.39,-0.34,0.67,0.02,-0.05
9.77,-0.02,-1.08,0.62,0.02,-0.04
9.8,0.23,-1.72,0.54,0.02,-0.04
9.71,0.45,-2.26,0.44,0.0,-0.03
9.74,0.64,-3.06,0.3,-0.0,-0.02
9.72,0.76,-3.51,0.15,-0.0,-0.02
9.73,0.76,-3.46,-0.0,-0.01,-0.01
9.81,0.17,-0.94,-0.0,0.0,-0.01
9.76,0.07,-1.26,0.15,-0.02,-0.03
9.67,0.36,-3.23,0.05,-0.02,-0.02
9.74,0.48,-3.32,-0.24,-0.02,-0.01
9.71,0.52,-2.88,-0.45,-0.02,-0.0
9.74,0.52,-1.94,-0.62,-0.05,0.01
9.73,0.27,-0.68,-0.67,-0.04,0.01
9.77,0.18,0.29,-0.65,-0.04,0.01
9.92,0.02,1.32,-0.57,-0.03,0.0
9.89,-0.09,1.92,-0.46,-0.03,-0.0
9.91,-0.3,2.7,-0.33,-0.03,-0.01
9.92,-0.7,3.13,-0.16,-0.03,-0.01
9.83,-0.12,0.5,-0.05,-0.05,-0.01
9.88,0.69,0.81,-0.17,-0.05,-0.01
9.84,0.08,2.39,-0.13,-0.03,-0.01
9.93,0.15,2.17,0.13,-0.01,-0.02
9.8,0.28,0.64,0.27,0.01,-0.03
9.76,0.45,-0.91,0.26,0.01,-0.03
9.78,0.46,-1.4,0.15,-0.01,-0.02
9.78,0.47,-1.72,0.07,-0.02,-0.02
9.79,0.71,-1.5,-0.0,-0.02,-0.01
9.7,0.57,-1.72,-0.02,-0.02,-0.01
9.74,0.6,-1.77,-0.0,-0.02,-0.02
9.76,0.46,-2.25,-0.02,-0.0,-0.02
9.79,0.15,-2.44,-0.11,-0.0,-0.02
9.76,-0.26,-2.46,-0.27,-0.02,-0.01
9.79,-0.76,-1.65,-0.39,-0.03,-0.01
9.81,-1.23,-0.57,-0.43,-0.03,-0.01
9.83,-1.62,0.52,-0.4,-0.03,-0.01
9.88,-1.59,1.17,-0.31,-0.03,-0.01
9.85,-1.34,1.52,-0.19,-0.03,-0.01
9.87,-0.91,1.62,-0.07,-0.02,-0.01
9.87,-0.37,1.49,0.02,-0.03,-0.01
9.86,0.0,1.5,0.08,-0.02,-0.02
9.9,0.25,1.68,0.16,-0.01,-0.02
9.8,0.7,1.64,0.26,-0.01,-0.02
9.8,1.13,0.72,0.37,0.0,-0.03
9.8,1.55,-0.4,0.38,0.0,-0.03
9.75,1.65,-1.02,0.33,0.0,-0.03
9.75,1.74,-1.91,0.25,-0.01,-0.02
9.74,1.6,-1.93,0.13,-0.02,-0.02
9.75,1.26,-1.79,0.08,-0.03,-0.02
9.76,1.0,-1.87,0.02,-0.02,-0.02
9.75,0.48,-1.93,-0.07,-0.01,-0.02
9.83,0.08,-1.92,-0.16,-0.02,-0.02
9.77,-0.34,-1.5,-0.25,-0.02,-0.01
9.77,-0.98,-0.82,-0.29,-0.02,-0.02
9.8,-1.32,-0.21,-0.3,-0.02,-0.01
9.83,-1.51,0.3,-0.25,-0.03,-0.01
9.87,-1.41,0.56,-0.15,-0.03,-0.01
9.84,-1.2,0.28,-0.09,-0.03,-0.01
9.85,-0.86,0.04,-0.08,-0.02,-0.01
9.84,-0.55,0.42,-0.08,-0.03,-0.01
9.86,-0.31,0.84,-0.05,-0.03,-0.01
9.88,0.0,1.13,0.0,-0.02,-0.01
9.88,0.18,1.21,0.06,-0.02,-0.02
9.85,0.27,1.28,0.14,-0.02,-0.02
9.85,0.32,1.39,0.22,-0.01,-0.03
9.82,0.47,1.13,0.32,-0.01,-0.04
9.88,0.78,0.22,0.38,0.0,-0.03
9.82,1.16,-0.96,0.35,0.01,-0.03
9.87,1.26,-1.28,0.29,-0.0,-0.03
9.75,1.24,-1.45,0.24,0.0,-0.02
9.72,1.19,-2.1,0.17,0.0,-0.02
9.77,0.8,-1.91,0.09,-0.0,-0.01
9.78,0.38,-1.44,0.1,-0.02,-0.02
9.76,0.15,-1.72,0.12,-0.03,-0.02
9.77,0.1,-2.23,0.09,-0.02,-0.03
9.68,0.09,-2.62,-0.02,-0.01,-0.02
9.74,0.33,-3.2,-0.24,-0.02,-0.01
9.74,0.39,-2.61,-0.45,-0.04,-0.0
9.8,0.45,-1.65,-0.6,-0.04,0.01
9.95,0.25,-0.46,-0.63,-0.03,0.01
9.76,0.13,0.43,-0.57,-0.05,0.0
9.91,-0.12,0.88,-0.52,-0.03,0.0
9.84,-0.4,1.79,-0.44,-0.02,0.0
9.9,-0.76,2.66,-0.31,-0.03,-0.01
9.86,-0.88,3.28,0.12,-0.03,-0.03
9.72,-0.15,0.25,0.0,-0.04,-0.02
9.78,0.09,0.58,-0.05,-0.07,-0.03
9.95,-0.25,2.62,-0.1,-0.03,-0.01
9.94,-0.42,3.96,0.23,-0.03,-0.02
9.96,-0.77,3.06,0.54,-0.02,-0.04
9.79,-0.63,1.22,0.71,0.03,-0.05
9.93,-0.39,-0.95,0.69,0.02,-0.05
9.87,-0.15,-1.71,0.51,0.01,-0.04
9.73,-0.01,-1.11,0.34,-0.01,-0.03
9.77,0.2,-0.79,0.31,0.01,-0.02
9.82,0.62,-0.95,0.35,-0.0,-0.02
9.77,0.6,-1.2,0.38,0.02,-0.03
9.7,0.6,-1.85,0.42,-0.0,-0.03
9.7,0.66,-2.85,0.33,-0.02,-0.03
9.69,0.64,-3.58,0.19,-0.02,-0.03
9.91,0.21,-1.22,0.02,0.02,-0.01
9.57,-0.35,-1.02,0.19,0.0,-0.03
9.87,0.51,-1.41,0.37,-0.04,-0.04
9.66,0.59,-2.49,0.28,0.01,-0.03
9.68,0.28,-3.19,0.05,-0.03,-0.02
9.63,0.19,-3.51,-0.39,-0.05,0.0
9.73,0.49,-1.54,-0.71,-0.04,0.01
9.83,0.23,0.16,-0.75,-0.04,0.01
9.86,-0.12,1.43,-0.68,-0.04,0.01
9.88,-0.36,2.38,-0.52,-0.05,0.0
9.87,-0.52,2.68,-0.33,-0.03,-0.0
9.91,-0.33,2.38,-0.12,-0.02,-0.01
9.83,-0.04,0.71,-0.01,-0.03,-0.02
9.79,0.12,-0.03,-0.03,-0.03,-0.02
9.84,0.05,-0.06,-0.07,-0.03,-0.01
9.8,0.13,0.12,-0.1,-0.02,-0.01
9.85,0.36,0.03,-0.08,-0.02,-0.01
9.8,0.56,-0.2,-0.06,-0.01,-0.01
9.82,0.84,-0.65,-0.08,-0.01,-0.01
9.88,1.68,-0.13,-0.07,-0.01,-0.0
9.73,1.86,-0.45,-0.02,-0.01,-0.01
9.82,1.76,-0.99,-0.02,-0.01,-0.02
9.77,1.24,-1.1,-0.1,-0.02,-0.03
9.85,0.24,-1.05,-0.16,-0.02,-0.02
9.8,-0.88,-0.73,-0.21,-0.01,-0.02
9.81,-1.69,-0.13,-0.22,-0.02,-0.01
9.89,-2.32,0.5,-0.15,-0.02,-0.01
9.84,-1.16,0.43,-0.06,-0.03,-0.01
9.82,-2.66,-0.59,-0.03,-0.03,-0.03
9.82,-1.81,-0.18,-0.03,-0.02,-0.02
9.87,-1.47,0.11,0.02,-0.02,-0.03
9.89,-1.07,0.17,0.1,-0.02,-0.02
9.92,-0.2,-0.25,0.16,-0.0,-0.02
9.83,0.49,-0.29,0.18,-0.02,-0.02
9.91,1.18,-0.29,0.17,-0.01,-0.02
9.84,1.47,-0.25,0.15,-0.01,-0.02
9.77,1.93,-0.42,0.13,-0.02,-0.01
9.79,2.51,-0.79,0.06,-0.02,-0.01
9.7,0.93,-0.54,-0.01,-0.01,-0.01
9.93,2.71,0.44,-0.08,-0.02,-0.0
9.71,1.91,0.41,0.01,-0.03,-0.03
9.77,1.39,0.07,0.07,-0.01,-0.02
9.8,1.0,-0.21,0.09,-0.01,-0.03
9.78,0.2,-0.51,0.12,-0.01,-0.03
9.86,-0.18,-1.02,0.07,-0.01,-0.03
9.73,-0.59,-1.2,-0.04,-0.01,-0.02
9.8,-1.32,-0.57,-0.15,-0.01,-0.02
9.82,-1.79,0.03,-0.15,-0.03,-0.01
9.84,-1.82,-0.04,-0.09,-0.04,-0.02
9.85,-0.38,-0.33,-0.04,-0.05,-0.02
9.76,-1.79,0.09,-0.01,-0.02,-0.01
9.88,-1.34,-0.06,0.1,0.0,-0.02
9.74,-1.26,-0.34,0.13,0.01,-0.02
9.76,-0.73,-0.42,0.13,-0.02,-0.02
9.83,-0.26,-0.36,0.12,-0.03,-0.02
9.73,0.5,-0.45,0.08,-0.02,-0.01
9.91,0.96,-0.37,0.03,-0.02,-0.02
9.85,1.21,0.0,-0.02,-0.02,-0.02
9.77,1.19,0.16,-0.05,-0.03,-0.01
9.81,1.06,0.23,-0.08,-0.03,-0.02
9.81,0.92,0.44,-0.12,-0.03,-0.01
9.91,0.68,1.35,-0.1,-0.02,-0.01
9.93,0.34,2.27,0.05,-0.01,-0.02
9.93,0.26,2.25,0.25,-0.02,-0.03
9.86,0.02,1.82,0.43,-0.0,-0.04
9.96,-0.03,0.94,0.53,0.01,-0.05
9.78,-0.18,0.18,0.55,-0.01,-0.05
9.86,-0.29,-0.44,0.52,0.01,-0.04
9.84,0.04,-0.59,0.54,0.01,-0.04
9.78,0.34,-1.13,0.51,0.01,-0.04
9.73,0.37,-1.3,0.47,-0.01,-0.04
9.79,0.35,-2.1,0.41,-0.01,-0.04
9.73,0.29,-2.54,0.3,-0.02,-0.03
9.7,0.2,-3.1,0.17,-0.01,-0.03
9.74,0.12,-2.92,0.01,-0.0,-0.02
9.84,0.36,-1.16,-0.02,0.01,-0.01
9.75,0.56,-1.39,0.06,0.02,-0.01
9.73,1.07,-2.49,0.07,-0.0,-0.02
9.66,1.53,-3.72,-0.14,-0.01,-0.01
9.8,1.36,-3.61,-0.42,-0.0,0.0
9.81,0.94,-2.81,-0.62,-0.02,0.0
9.72,0.55,-2.04,-0.77,-0.04,0.01
9.87,-0.21,-0.86,-0.83,-0.02,0.02
9.78,-0.73,-0.12,-0.79,-0.05,0.01
9.86,-1.21,0.45,-0.75,-0.02,0.01
9.8,-1.58,0.76,-0.68,-0.01,0.01
9.92,-1.92,1.47,-0.57,-0.03,0.01
9.96,-1.95,1.71,-0.42,-0.04,-0.0
9.87,-1.83,1.88,-0.27,-0.05,-0.01
9.88,-1.38,1.54,-0.16,-0.03,-0.01
9.9,-0.94,0.8,-0.08,-0.06,-0.02
9.83,-0.6,0.71,-0.07,-0.04,-0.02
9.79,-0.35,0.8,-0.06,-0.05,-0.02
9.82,-0.26,1.1,-0.03,-0.06,-0.02
9.91,0.0,1.12,0.02,-0.04,-0.02
9.92,0.07,1.07,0.07,-0.02,-0.02
9.96,0.18,1.08,0.11,-0.01,-0.02
9.92,0.24,1.01,0.16,-0.01,-0.02
9.93,0.27,0.91,0.22,-0.01,-0.02
9.87,0.38,0.86,0.28,-0.01,-0.03
9.84,0.4,0.91,0.34,-0.01,-0.03
9.81,0.58,0.72,0.38,-0.01,-0.03
9.81,0.68,0.9,0.46,-0.0,-0.04
9.87,0.73,0.6,0.56,0.0,-0.04
9.88,0.89,-0.16,0.62,0.01,-0.05
9.77,1.01,-0.97,0.59,0.0,-0.04
9.83,1.0,-1.22,0.47,0.01,-0.04
9.85,0.89,-1.07,0.4,-0.0,-0.03
9.76,0.77,-0.65,0.35,0.0,-0.03
9.73,0.92,-0.69,0.35,0.0,-0.03
9.78,0.95,-0.85,0.34,-0.0,-0.03
9.77,0.87,-0.84,0.34,-0.01,-0.03
9.89,0.94,-1.06,0.33,-0.03,-0.03
9.72,0.91,-1.14,0.28,-0.01,-0.03
9.8,1.01,-1.08,0.23,-0.01,-0.03
9.78,1.05,-1.09,0.17,-0.01,-0.03
9.81,1.29,-0.86,0.13,-0.01,-0.03
9.84,1.01,-0.86,0.12,-0.01,-0.03
9.74,0.95,-1.25,0.11,-0.02,-0.03
9.85,0.61,-1.4,0.07,-0.01,-0.03
9.8,0.28,-1.63,-0.0,-0.01,-0.03
9.83,0.02,-1.63,-0.11,-0.02,-0.02
9.79,-0.21,-1.25,-0.2,0.01,-0.01
9.79,-0.38,-0.83,-0.25,0.01,-0.0
9.77,-0.58,-0.68,-0.26,-0.0,-0.0
9.83,-0.44,-0.83,-0.26,0.0,0.0
9.81,-0.43,-0.97,-0.26,0.01,-0.0
9.81,-0.43,-1.03,-0.29,0.0,0.0
9.79,-0.49,-0.76,-0.3,0.01,-0.0
9.78,-0.43,-0.82,-0.29,-0.01,-0.01
9.82,-0.42,-0.73,-0.32,-0.01,-0.01
9.78,-0.4,-0.51,-0.33,-0.01,-0.01
9.76,-0.47,-0.62,-0.34,-0.02,-0.0
9.89,-0.51,-0.54,-0.37,-0.01,-0.01
9.84,-0.62,-0.67,-0.41,-0.0,-0.01
9.68,-0.66,-0.21,-0.47,-0.04,-0.0
9.85,-0.85,0.26,-0.48,-0.04,0.0
9.86,-1.09,0.79,-0.46,-0.04,-0.0
9.91,-1.24,1.24,-0.37,-0.05,-0.01
9.85,-1.17,1.0,-0.28,-0.05,-0.01
9.84,-0.95,0.6,-0.21,-0.04,-0.01
9.87,-0.76,0.6,-0.17,-0.05,-0.01
9.78,-0.6,0.4,-0.15,-0.05,-0.01
9.84,-0.5,0.31,-0.13,-0.03,-0.01
9.84,-0.47,0.34,-0.11,-0.05,-0.01
9.88,-0.28,0.24,-0.07,-0.06,-0.01
9.83,-0.11,0.32,-0.04,-0.07,-0.02
9.87,0.05,0.28,0.01,-0.07,-0.02
9.86,0.16,-0.04,0.05,-0.05,-0.02
9.85,0.17,-0.21,0.05,-0.04,-0.02
9.81,0.36,-0.15,0.04,-0.02,-0.02
9.91,0.49,0.14,0.06,-0.03,-0.02
9.81,0.42,0.09,0.09,-0.02,-0.02
9.84,0.6,0.03,0.1,-0.02,-0.02
9.8,0.61,0.34,0.11,-0.01,-0.02
9.83,0.82,0.36,0.15,-0.02,-0.02
9.86,1.02,0.25,0.18,-0.02,-0.02
9.76,1.14,0.27,0.2,-0.02,-0.03
9.87,1.19,0.48,0.22,-0.02,-0.03
9.9,1.1,1.26,0.31,-0.01,-0.03
9.85,0.91,2.01,0.48,-0.0,-0.04
9.82,0.8,1.37,0.68,0.0,-0.05
9.83,0.93,-0.1,0.77,0.01,-0.05
9.83,0.84,-0.97,0.7,0.0,-0.05
9.75,0.69,-1.22,0.58,-0.0,-0.04
9.76,0.62,-1.44,0.44,0.0,-0.04
9.68,0.4,-1.16,0.33,-0.01,-0.03
9.8,0.33,-1.01,0.27,-0.01,-0.03
9.79,0.34,-1.19,0.25,-0.01,-0.03
9.76,0.11,-1.96,0.24,0.0,-0.03
9.76,-0.32,-2.72,0.17,-0.0,-0.02
9.77,-0.72,-1.96,0.08,0.01,-0.01
9.81,-0.96,-1.21,0.11,0.02,-0.01
9.72,-0.56,-1.88,0.19,-0.0,-0.02
9.67,0.05,-3.94,0.05,-0.03,-0.01
9.71,0.54,-4.26,-0.2,-0.03,-0.01
9.75,0.15,-4.14,-0.64,-0.03,0.01
9.67,0.11,-2.21,-0.83,-0.03,0.02
9.89,0.23,-1.77,-0.87,-0.04,0.01
10.07,0.3,-1.25,-0.9,-0.06,0.01
9.96,0.23,-0.67,-0.97,-0.06,0.02
9.76,0.0,0.6,-0.98,-0.06,0.01
9.89,-0.31,1.49,-0.92,-0.05,0.02
9.79,-0.47,2.21,-0.79,-0.07,0.01
9.91,-0.49,2.56,-0.65,-0.03,0.01
9.98,-0.51,2.49,-0.5,-0.03,0.0
9.89,-0.28,2.56,-0.33,-0.04,-0.0
9.89,-0.06,2.72,-0.18,-0.02,-0.01
9.86,0.07,2.44,-0.04,-0.02,-0.02
9.81,0.13,0.22,-0.03,-0.04,-0.02
9.88,0.94,-0.3,-0.08,-0.03,-0.01
9.86,1.06,0.02,-0.23,-0.03,-0.01
9.82,1.03,0.44,-0.29,-0.02,-0.0
9.81,1.0,1.02,-0.22,-0.01,-0.01
9.8,0.98,1.08,-0.07,-0.01,-0.01
9.82,0.84,0.63,0.08,-0.0,-0.02
9.82,0.8,-0.07,0.16,-0.0,-0.02
9.73,0.65,-0.74,0.15,-0.0,-0.02
9.79,0.37,-1.26,0.08,0.02,-0.02
9.83,0.0,-1.14,-0.03,0.0,-0.02
9.79,-0.17,-0.55,-0.11,-0.01,-0.02
9.79,-0.45,-0.26,-0.14,-0.02,-0.02
9.81,-0.52,0.24,-0.14,-0.02,-0.01
9.83,-0.54,0.26,-0.11,-0.02,-0.02
9.87,-0.62,0.78,-0.07,-0.02,-0.02
9.88,-0.73,0.85,0.03,-0.02,-0.03
9.82,-0.68,0.86,0.12,-0.02,-0.03
9.86,-0.54,0.71,0.17,-0.02,-0.03
9.85,-0.29,0.92,0.17,-0.04,-0.04
9.9,-0.36,1.23,0.24,-0.04,-0.04
9.8,-0.22,1.17,0.33,-0.02,-0.04
9.91,-0.04,0.89,0.44,0.01,-0.03
9.82,0.16,0.06,0.54,0.04,-0.03
9.76,0.35,-0.84,0.53,0.03,-0.03
9.74,0.49,-1.4,0.48,-0.0,-0.04
9.76,0.19,-1.88,0.37,-0.02,-0.04
9.75,-0.21,-1.98,0.24,-0.02,-0.03
9.8,-0.74,-1.61,0.17,-0.02,-0.03
9.79,-0.97,-1.07,0.13,-0.02,-0.02
9.87,-1.03,-0.58,0.14,-0.0,-0.02
9.81,-1.02,-0.15,0.21,-0.02,-0.02
9.84,-1.05,-0.37,0.28,-0.01,-0.03
9.81,-0.79,-1.02,0.3,-0.01,-0.03
9.84,-0.63,-1.31,0.24,-0.01,-0.03
9.78,-0.4,-1.34,0.17,-0.02,-0.03
9.76,-0.12,-1.21,0.09,-0.02,-0.02
9.85,-0.18,-0.69,0.06,-0.02,-0.02
9.78,0.07,-0.68,0.1,-0.03,-0.02
9.82,0.16,-1.01,0.15,-0.02,-0.02
9.73,0.3,-1.22,0.17,-0.02,-0.02
9.82,0.33,-1.73,0.18,-0.02,-0.02
9.88,0.65,-2.43,0.13,-0.03,-0.02
9.64,1.19,-2.55,-0.01,-0.02,-0.02
9.82,1.39,-2.36,-0.14,-0.02,-0.01
9.81,1.71,-2.05,-0.24,-0.03,-0.0
9.75,1.68,-2.21,-0.36,-0.02,0.01
9.77,1.66,-2.0,-0.46,-0.02,0.01
9.83,1.28,-2.09,-0.58,-0.04,0.02
9.72,1.11,-1.34,-0.74,-0.06,0.03
9.86,0.72,-0.79,-0.84,-0.05,0.02
9.96,0.34,0.26,-0.94,-0.04,0.02
9.94,-0.15,1.71,-0.89,-0.06,0.02
9.84,-0.64,2.66,-0.76,-0.03,0.01
10.0,-1.35,3.57,-0.56,-0.04,-0.0
9.96,-1.72,3.74,-0.31,-0.04,-0.01
9.88,-1.41,1.62,-0.13,-0.04,-0.02
9.8,-1.01,0.28,-0.19,-0.05,-0.02
9.92,-0.74,1.09,-0.26,-0.04,-0.01
9.88,-0.6,2.01,-0.18,-0.03,-0.02
9.96,-0.33,2.59,0.0,-0.02,-0.02
9.89,-0.11,2.61,0.22,-0.0,-0.02
9.97,-0.08,2.73,0.43,0.01,-0.02
9.96,0.04,2.39,0.61,0.01,-0.03
9.78,0.34,1.03,0.77,0.02,-0.05
9.83,0.7,-0.41,0.79,0.0,-0.05
9.85,0.77,-1.0,0.69,0.01,-0.05
9.78,0.93,-1.01,0.59,0.02,-0.05
9.77,1.01,-0.62,0.53,0.02,-0.05
9.7,1.13,-0.6,0.52,0.01,-0.05
9.79,1.38,-0.88,0.51,-0.0,-0.04
9.83,1.37,-1.11,0.49,0.01,-0.04
9.73,1.64,-1.64,0.46,-0.0,-0.04
9.81,1.6,-2.11,0.36,-0.02,-0.04
9.68,1.47,-2.31,0.25,-0.01,-0.03
9.72,1.13,-2.08,0.15,-0.01,-0.02
9.74,0.71,-2.19,0.09,-0.02,-0.02
9.8,0.23,-2.15,0.03,-0.02,-0.01
9.73,-0.01,-1.79,-0.01,-0.02,-0.01
9.74,-0.16,-1.87,-0.02,-0.02,-0.01
9.75,-0.14,-2.24,-0.04,-0.01,-0.01
9.78,-0.05,-3.02,-0.14,-0.03,-0.01
9.77,-0.11,-3.06,-0.33,-0.02,-0.01
9.82,-0.53,-2.19,-0.51,-0.01,0.0
9.68,-0.79,-1.39,-0.59,-0.01,0.0
9.86,-1.03,-1.07,-0.62,-0.02,0.01
9.78,-1.24,-0.47,-0.63,0.0,0.01
9.79,-1.54,0.23,-0.64,-0.02,0.01
9.84,-1.72,0.94,-0.59,-0.04,0.0
9.9,-2.11,1.68,-0.53,-0.06,0.0
9.96,-2.16,2.66,-0.37,-0.07,0.0
9.91,-1.83,2.85,-0.19,-0.08,-0.01
9.95,-1.33,2.73,-0.04,-0.05,-0.01
9.95,-0.65,2.42,0.1,-0.05,-0.01
9.89,-0.22,2.44,0.19,-0.03,-0.02
9.89,0.07,2.77,0.31,-0.01,-0.03
9.85,0.33,2.58,0.5,-0.0,-0.04
9.89,0.79,1.7,0.67,-0.01,-0.05
9.8,1.18,0.43,0.75,0.02,-0.06
9.82,1.73,-0.98,0.76,0.01,-0.05
9.73,2.14,-2.31,0.62,0.01,-0.04
9.72,2.38,-3.38,0.43,-0.01,-0.03
9.69,2.19,-3.29,0.18,-0.0,-0.02
9.75,1.67,-2.28,0.06,-0.0,-0.01
9.73,1.01,-1.86,0.06,-0.01,-0.01
9.74,0.57,-2.23,0.08,-0.01,-0.01
9.72,0.18,-2.42,0.06,-0.02,-0.02
9.75,0.15,-3.0,-0.05,-0.02,-0.02
9.66,0.23,-3.38,-0.24,-0.03,-0.01
9.62,0.35,-3.42,-0.49,-0.04,-0.0
9.77,-0.03,-2.14,-0.73,-0.02,0.0
9.8,-0.21,-0.68,-0.81,-0.03,0.0
9.8,-0.56,1.03,-0.75,-0.04,0.0
10.0,-0.64,2.51,-0.57,-0.06,-0.0
9.95,-0.87,3.66,-0.27,-0.04,-0.01
10.06,-1.86,4.23,0.13,0.0,0.0
9.95,-0.16,1.19,0.47,-0.0,-0.0
9.76,0.07,0.45,0.36,0.01,-0.0
9.56,0.13,0.27,0.11,-0.07,-0.0
9.77,-0.5,-0.89,-0.07,-0.08,-0.02
9.79,0.03,-0.37,-0.03,-0.03,-0.01
9.77,0.11,-0.28,-0.03,-0.02,-0.01
9.78,0.11,-0.27,-0.03,-0.02,-0.02
9.91,0.14,-0.28,-0.02,-0.02,-0.01
9.79,0.15,-0.3,-0.03,-0.02,-0.02
9.88,0.13,-0.28,-0.03,-0.02,-0.02
9.75,0.12,-0.32,-0.03,-0.02,-0.01
9.83,0.12,-0.29,-0.03,-0.02,-0.02
9.81,0.11,-0.3,-0.03,-0.02,-0.02
9.8,0.12,-0.32,-0.02,-0.02,-0.02
9.88,0.11,-0.28,-0.03,-0.02,-0.02
9.78,0.12,-0.28,-0.03,-0.02,-0.02
9.83,0.12,-0.3,-0.02,-0.02,-0.02
9.78,0.13,-0.3,-0.03,-0.02,-0.02
9.77,0.11,-0.31,-0.03,-0.02,-0.02
9.86,0.11,-0.3,-0.02,-0.02,-0.02
9.8,0.11,-0.32,-0.03,-0.02,-0.02
9.84,0.12,-0.29,-0.02,-0.02,-0.02
9.78,0.12,-0.29,-0.03,-0.02,-0.02
9.81,0.12,-0.28,-0.03,-0.02,-0.02
9.81,0.14,-0.28,-0.03,-0.02,-0.02
9.8,0.12,-0.28,-0.03,-0.02,-0.02
9.84,0.11,-0.29,-0.03,-0.02,-0.02
9.78,0.13,-0.32,-0.03,-0.02,-0.02
9.83,0.14,-0.29,-0.03,-0.02,-0.02
9.79,0.13,-0.3,-0.03,-0.02,-0.02
9.8,0.13,-0.28,-0.03,-0.02,-0.02
9.81,0.11,-0.26,-0.03,-0.02,-0.02
9.78,0.15,-0.29,-0.02,-0.02,-0.02
9.83,0.12,-0.32,-0.03,-0.02,-0.02
9.79,0.12,-0.29,-0.03,-0.02,-0.02
9.82,0.12,-0.28,-0.03,-0.02,-0.02
9.83,0.11,-0.31,-0.03,-0.02,-0.02
9.81,0.11,-0.3,-0.03,-0.02,-0.02
9.83,0.12,-0.28,-0.02,-0.02,-0.02
9.81,0.12,-0.27,-0.03,-0.02,-0.02
9.81,0.13,-0.29,-0.02,-0.02,-0.02
9.82,0.11,-0.27,-0.02,-0.02,-0.02
9.83,0.12,-0.29,-0.03,-0.02,-0.02
9.81,0.13,-0.31,-0.03,-0.02,-0.02
9.81,0.11,-0.29,-0.03,-0.02,-0.02
9.84,0.12,-0.29,-0.03,-0.02,-0.02
9.78,0.14,-0.31,-0.03,-0.02,-0.02
9.82,0.13,-0.29,-0.03,-0.02,-0.02
9.87,0.16,-0.28,-0.03,-0.02,-0.01
9.77,0.15,-0.32,-0.03,-0.02,-0.02
9.79,0.13,-0.29,-0.03,-0.02,-0.02
9.84,0.11,-0.29,-0.03,-0.02,-0.01
9.8,0.14,-0.26,-0.03,-0.02,-0.02
9.82,0.12,-0.25,-0.03,-0.02,-0.02
9.82,0.13,-0.31,-0.02,-0.02,-0.01
9.81,0.12,-0.28,-0.03,-0.02,-0.02
9.77,0.11,-0.29,-0.03,-0.02,-0.02
9.84,0.13,-0.32,-0.03,-0.02,-0.01
9.77,0.11,-0.3,-0.03,-0.02,-0.02
9.84,0.1,-0.26,-0.03,-0.02,-0.01
9.83,0.13,-0.31,-0.03,-0.02,-0.02
9.75,0.13,-0.29,-0.03,-0.02,-0.02
9.84,0.11,-0.33,-0.02,-0.02,-0.01
9.77,0.13,-0.3,-0.02,-0.02,-0.02
9.84,0.11,-0.26,-0.03,-0.02,-0.02
9.82,0.11,-0.27,-0.02,-0.02,-0.01
9.82,0.11,-0.34,-0.03,-0.02,-0.02
9.78,0.13,-0.33,-0.03,-0.02,-0.02
9.77,0.13,-0.28,-0.03,-0.02,-0.02
9.81,0.11,-0.27,-0.03,-0.02,-0.02
9.79,0.11,-0.28,-0.03,-0.02,-0.02
9.82,0.11,-0.27,-0.03,-0.02,-0.02
9.79,0.12,-0.33,-0.03,-0.02,-0.02
9.84,0.14,-0.32,-0.03,-0.02,-0.02
9.89,0.11,-0.33,-0.03,-0.02,-0.02
9.8,0.08,-0.21,-0.03,-0.02,-0.02
9.81,0.14,-0.36,-0.03,-0.02,-0.02
9.87,0.12,-0.33,-0.03,-0.02,-0.02
9.79,0.17,-0.34,-0.03,-0.02,-0.02
9.84,0.13,-0.3,-0.03,-0.02,-0.02
9.77,0.13,-0.31,-0.03,-0.02,-0.02
9.88,0.12,-0.26,-0.02,-0.02,-0.02
9.75,0.14,-0.27,-0.03,-0.02,-0.02
9.84,0.14,-0.3,-0.03,-0.02,-0.02
9.79,0.14,-0.29,-0.03,-0.02,-0.02
9.8,0.12,-0.31,-0.03,-0.02,-0.02
9.84,0.12,-0.32,-0.03,-0.02,-0.02
9.76,0.14,-0.29,-0.03,-0.02,-0.02
9.85,0.13,-0.29,-0.03,-0.02,-0.02
9.79,0.11,-0.28,-0.03,-0.02,-0.02
9.82,0.12,-0.28,-0.03,-0.02,-0.02
9.84,0.12,-0.28,-0.03,-0.02,-0.02
9.82,0.14,-0.31,-0.03,-0.02,-0.02
9.87,0.14,-0.39,-0.02,-0.02,-0.02
9.81,0.15,-0.34,-0.02,-0.02,-0.01
9.84,0.11,-0.28,-0.02,-0.02,-0.02
9.82,0.11,-0.28,-0.03,-0.02,-0.01
9.81,0.13,-0.28,-0.03,-0.02,-0.02
9.83,0.14,-0.3,-0.03,-0.02,-0.02
9.78,0.13,-0.31,-0.03,-0.02,-0.02
9.84,0.13,-0.3,-0.03,-0.02,-0.02
9.79,0.13,-0.32,-0.03,-0.02,-0.02
9.82,0.13,-0.31,-0.02,-0.02,-0.02
9.78,0.12,-0.28,-0.02,-0.02,-0.02
9.79,0.13,-0.3,-0.02,-0.02,-0.02
9.83,0.13,-0.31,-0.02,-0.02,-0.02
9.79,0.11,-0.28,-0.02,-0.02,-0.02
9.84,0.14,-0.29,-0.03,-0.02,-0.02
9.81,0.14,-0.3,-0.03,-0.02,-0.02
9.84,0.14,-0.32,-0.02,-0.02,-0.02
9.8,0.13,-0.27,-0.02,-0.02,-0.02
9.81,0.11,-0.25,-0.02,-0.02,-0.02
9.83,0.13,-0.29,-0.03,-0.02,-0.02
9.84,0.15,-0.32,-0.03,-0.02,-0.02
9.81,0.14,-0.29,-0.02,-0.02,-0.02
9.8,0.12,-0.32,-0.02,-0.02,-0.02
9.81,0.13,-0.29,-0.03,-0.02,-0.02
9.82,0.12,-0.3,-0.03,-0.02,-0.02
9.81,0.12,-0.3,-0.03,-0.02,-0.02
9.82,0.14,-0.26,-0.03,-0.02,-0.02
9.82,0.13,-0.27,-0.03,-0.02,-0.02
9.83,0.16,-0.33,-0.03,-0.02,-0.02
9.79,0.13,-0.29,-0.02,-0.02,-0.02
9.82,0.13,-0.3,-0.03,-0.02,-0.02
9.86,0.17,-0.3,-0.03,-0.02,-0.02
9.77,0.14,-0.3,-0.02,-0.02,-0.02
9.82,0.15,-0.28,-0.02,-0.02,-0.02
9.78,0.12,-0.28,-0.03,-0.02,-0.02
9.79,0.13,-0.27,-0.03,-0.02,-0.02
9.85,0.12,-0.3,-0.03,-0.02,-0.02
9.8,0.14,-0.3,-0.02,-0.02,-0.02
9.83,0.15,-0.31,-0.02,-0.02,-0.02
9.78,0.13,-0.29,-0.03,-0.02,-0.02
9.81,0.13,-0.31,-0.03,-0.02,-0.02
9.79,0.13,-0.27,-0.03,-0.02,-0.02
9.8,0.12,-0.27,-0.03,-0.02,-0.02
9.83,0.15,-0.29,-0.03,-0.02,-0.02
9.82,0.13,-0.3,-0.03,-0.02,-0.02
9.83,0.14,-0.3,-0.03,-0.02,-0.02
9.79,0.16,-0.28,-0.02,-0.02,-0.02
9.82,0.13,-0.31,-0.02,-0.02,-0.02
9.85,0.12,-0.27,-0.03,-0.02,-0.02
9.79,0.14,-0.31,-0.03,-0.02,-0.02
9.82,0.12,-0.34,-0.03,-0.02,-0.02
9.79,0.13,-0.3,-0.02,-0.02,-0.02
9.81,0.13,-0.29,-0.02,-0.02,-0.02
9.81,0.15,-0.32,-0.03,-0.02,-0.02
9.8,0.15,-0.29,-0.03,-0.02,-0.02
9.83,0.15,-0.3,-0.03,-0.02,-0.02
9.79,0.11,-0.33,-0.03,-0.02,-0.02
9.82,0.12,-0.31,-0.03,-0.02,-0.02
9.82,0.13,-0.32,-0.03,-0.02,-0.02
9.83,0.14,-0.32,-0.02,-0.03,-0.02
9.84,0.15,-0.28,-0.02,-0.03,-0.02
9.81,0.14,-0.31,-0.02,-0.03,-0.02
9.83,0.11,-0.29,-0.03,-0.03,-0.02
9.79,0.12,-0.34,-0.02,-0.03,-0.02
9.83,0.13,-0.29,-0.02,-0.03,-0.02
9.82,0.15,-0.31,-0.03,-0.03,-0.02
9.83,0.16,-0.31,-0.03,-0.02,-0.02
9.81,0.15,-0.34,-0.03,-0.03,-0.02
9.81,0.14,-0.33,-0.02,-0.03,-0.02
9.82,0.12,-0.32,-0.02,-0.03,-0.02
9.8,0.14,-0.3,-0.03,-0.03,-0.02
9.82,0.16,-0.28,-0.03,-0.03,-0.02
9.8,0.15,-0.32,-0.03,-0.03,-0.02
9.8,0.14,-0.33,-0.02,-0.03,-0.02
9.79,0.15,-0.31,-0.02,-0.03,-0.02
9.78,0.14,-0.3,-0.03,-0.03,-0.02
9.76,0.14,-0.33,-0.03,-0.03,-0.02
9.77,0.14,-0.34,-0.03,-0.02,-0.02
9.88,0.16,-0.33,-0.03,-0.02,-0.01
9.83,0.16,-0.31,-0.03,-0.02,-0.02
9.8,0.16,-0.29,-0.03,-0.02,-0.02
9.77,0.14,-0.3,-0.03,-0.02,-0.02
9.8,0.13,-0.3,-0.03,-0.02,-0.02
9.81,0.09,-0.31,-0.03,-0.02,-0.02
9.76,0.09,-0.33,-0.03,-0.02,-0.02
9.78,0.12,-0.34,-0.03,-0.02,-0.02
9.81,0.15,-0.36,-0.02,-0.02,-0.02
9.88,0.2,-0.31,-0.02,-0.02,-0.02
9.86,0.19,-0.29,-0.03,-0.02,-0.02
9.84,0.15,-0.28,-0.03,-0.02,-0.01
9.81,0.1,-0.32,-0.03,-0.02,-0.01
9.8,0.12,-0.34,-0.03,-0.02,-0.02
9.8,0.15,-0.34,-0.02,-0.02,-0.02
9.82,0.17,-0.33,-0.03,-0.02,-0.02
9.84,0.19,-0.29,-0.03,-0.02,-0.02
9.84,0.16,-0.32,-0.03,-0.02,-0.01
9.8,0.12,-0.36,-0.03,-0.02,-0.01
9.8,0.12,-0.34,-0.03,-0.02,-0.01
9.82,0.1,-0.3,-0.02,-0.02,-0.01
9.84,0.13,-0.31,-0.02,-0.02,-0.02
9.83,0.16,-0.3,-0.03,-0.02,-0.02
9.82,0.16,-0.34,-0.03,-0.02,-0.02
9.79,0.15,-0.32,-0.03,-0.02,-0.02
9.83,0.14,-0.34,-0.02,-0.02,-0.02
9.83,0.14,-0.3,-0.02,-0.02,-0.02
9.8,0.12,-0.34,-0.03,-0.02,-0.02
9.81,0.11,-0.32,-0.03,-0.02,-0.02
9.8,0.13,-0.34,-0.03,-0.02,-0.02
9.81,0.13,-0.33,-0.02,-0.02,-0.02
9.84,0.15,-0.31,-0.02,-0.02,-0.02
9.83,0.16,-0.3,-0.03,-0.02,-0.02
9.83,0.14,-0.33,-0.02,-0.02,-0.02
9.82,0.12,-0.33,-0.03,-0.02,-0.02
9.8,0.15,-0.3,-0.03,-0.02,-0.02
9.8,0.15,-0.34,-0.02,-0.02,-0.02
9.8,0.15,-0.31,-0.03,-0.02,-0.02
9.81,0.14,-0.3,-0.03,-0.02,-0.02
9.83,0.14,-0.32,-0.03,-0.02,-0.02
9.82,0.14,-0.29,-0.02,-0.02,-0.02
9.83,0.12,-0.35,-0.02,-0.02,-0.02
9.8,0.14,-0.32,-0.02,-0.02,-0.02
9.79,0.13,-0.3,-0.03,-0.02,-0.02
9.79,0.12,-0.34,-0.03,-0.02,-0.02
9.83,0.14,-0.31,-0.03,-0.02,-0.02
9.83,0.13,-0.34,-0.03,-0.02,-0.02
9.8,0.17,-0.31,-0.03,-0.02,-0.02
9.82,0.18,-0.32,-0.02,-0.02,-0.02
9.81,0.14,-0.33,-0.02,-0.02,-0.01
9.81,0.14,-0.31,-0.03,-0.02,-0.02
9.8,0.12,-0.31,-0.03,-0.02,-0.02
9.81,0.13,-0.31,-0.03,-0.02,-0.02
9.83,0.13,-0.3,-0.02,-0.02,-0.02
9.82,0.16,-0.29,-0.02,-0.02,-0.02
9.82,0.17,-0.31,-0.02,-0.02,-0.02
9.82,0.15,-0.33,-0.03,-0.02,-0.02
9.81,0.14,-0.33,-0.03,-0.02,-0.02
9.83,0.12,-0.35,-0.03,-0.02,-0.02
9.82,0.14,-0.34,-0.03,-0.02,-0.02
9.81,0.14,-0.31,-0.03,-0.02,-0.02
9.79,0.14,-0.31,-0.03,-0.02,-0.02
9.8,0.14,-0.3,-0.03,-0.02,-0.02
9.82,0.15,-0.31,-0.03,-0.02,-0.02
9.81,0.14,-0.33,-0.03,-0.02,-0.02
9.82,0.14,-0.34,-0.02,-0.02,-0.02
9.8,0.15,-0.34,-0.02,-0.02,-0.02
9.82,0.16,-0.32,-0.02,-0.02,-0.02
9.82,0.15,-0.29,-0.02,-0.02,-0.02
9.82,0.14,-0.33,-0.03,-0.02,-0.01
9.84,0.11,-0.31,-0.03,-0.02,-0.02
9.82,0.13,-0.33,-0.03,-0.02,-0.02
9.78,0.13,-0.31,-0.03,-0.02,-0.02
9.8,0.12,-0.31,-0.03,-0.02,-0.02
9.79,0.14,-0.34,-0.03,-0.02,-0.02
9.82,0.17,-0.36,-0.03,-0.02,-0.02
9.83,0.14,-0.32,-0.03,-0.02,-0.02
9.81,0.15,-0.35,-0.03,-0.02,-0.02
9.82,0.15,-0.3,-0.03,-0.02,-0.02
9.8,0.14,-0.33,-0.02,-0.02,-0.02
9.82,0.13,-0.29,-0.03,-0.02,-0.01
9.82,0.12,-0.32,-0.03,-0.02,-0.02
9.81,0.12,-0.3,-0.03,-0.02,-0.02
9.8,0.12,-0.33,-0.03,-0.02,-0.02
9.79,0.14,-0.34,-0.02,-0.02,-0.02
9.81,0.14,-0.33,-0.03,-0.02,-0.02
9.82,0.16,-0.3,-0.02,-0.02,-0.02
9.8,0.16,-0.28,-0.02,-0.02,-0.02
9.8,0.12,-0.33,-0.03,-0.02,-0.02
9.82,0.13,-0.34,-0.03,-0.02,-0.02
9.82,0.13,-0.32,-0.03,-0.02,-0.02
9.82,0.15,-0.34,-0.02,-0.02,-0.02
9.82,0.15,-0.34,-0.02,-0.02,-0.02
9.83,0.15,-0.32,-0.02,-0.02,-0.02
9.82,0.15,-0.3,-0.03,-0.02,-0.02
9.82,0.13,-0.33,-0.03,-0.02,-0.02
9.81,0.14,-0.31,-0.02,-0.02,-0.02
9.79,0.15,-0.34,-0.02,-0.02,-0.02
9.8,0.13,-0.31,-0.03,-0.02,-0.02
9.82,0.14,-0.33,-0.02,-0.02,-0.02
9.83,0.16,-0.3,-0.02,-0.02,-0.02
9.83,0.16,-0.34,-0.03,-0.02,-0.02
9.82,0.17,-0.32,-0.02,-0.02,-0.02
9.82,0.14,-0.33,-0.02,-0.02,-0.02
9.79,0.13,-0.31,-0.02,-0.02,-0.02
9.82,0.14,-0.33,-0.02,-0.02,-0.01
9.77,0.13,-0.31,-0.03,-0.02,-0.02
9.79,0.15,-0.31,-0.03,-0.02,-0.02
9.84,0.14,-0.29,-0.03,-0.02,-0.01
9.8,0.12,-0.3,-0.03,-0.02,-0.02
9.8,0.12,-0.29,-0.03,-0.02,-0.02
9.79,0.13,-0.33,-0.03,-0.02,-0.02
9.83,0.15,-0.33,-0.02,-0.02,-0.02
9.82,0.13,-0.34,-0.02,-0.02,-0.02
9.85,0.15,-0.33,-0.02,-0.02,-0.02
9.82,0.14,-0.33,-0.02,-0.02,-0.02
9.82,0.14,-0.31,-0.02,-0.02,-0.02
9.81,0.12,-0.31,-0.03,-0.02,-0.02
9.8,0.12,-0.33,-0.03,-0.02,-0.02
9.8,0.14,-0.32,-0.03,-0.02,-0.02
9.8,0.15,-0.3,-0.03,-0.02,-0.02
9.81,0.15,-0.32,-0.03,-0.02,-0.02
9.84,0.14,-0.33,-0.03,-0.02,-0.02
9.83,0.14,-0.33,-0.03,-0.02,-0.02
9.84,0.14,-0.28,-0.03,-0.02,-0.02
9.82,0.15,-0.32,-0.02,-0.02,-0.02
9.81,0.13,-0.31,-0.03,-0.02,-0.02
9.83,0.12,-0.35,-0.02,-0.02,-0.02
9.81,0.16,-0.33,-0.03,-0.02,-0.02
9.81,0.14,-0.32,-0.03,-0.02,-0.02
9.8,0.16,-0.3,-0.02,-0.02,-0.02
9.84,0.15,-0.33,-0.02,-0.02,-0.02
9.83,0.14,-0.33,-0.03,-0.02,-0.02
9.82,0.13,-0.34,-0.03,-0.02,-0.02
9.83,0.14,-0.34,-0.03,-0.02,-0.02
9.8,0.13,-0.34,-0.02,-0.02,-0.02
9.82,0.15,-0.31,-0.02,-0.02,-0.02
9.8,0.16,-0.27,-0.03,-0.02,-0.02
9.81,0.14,-0.29,-0.03,-0.02,-0.02
9.81,0.12,-0.33,-0.03,-0.02,-0.02
9.8,0.13,-0.34,-0.03,-0.02,-0.02
9.82,0.13,-0.33,-0.02,-0.02,-0.02
9.8,0.15,-0.31,-0.02,-0.02,-0.02
9.82,0.15,-0.32,-0.03,-0.02,-0.02
9.81,0.17,-0.29,-0.02,-0.02,-0.02
9.84,0.16,-0.33,-0.02,-0.02,-0.02
9.81,0.15,-0.33,-0.03,-0.02,-0.02
9.79,0.13,-0.34,-0.02,-0.02,-0.02
9.81,0.12,-0.31,-0.02,-0.02,-0.02
9.82,0.14,-0.32,-0.02,-0.02,-0.02
9.82,0.13,-0.33,-0.02,-0.02,-0.02
9.8,0.14,-0.35,-0.02,-0.02,-0.02
9.79,0.15,-0.32,-0.02,-0.02,-0.02
9.8,0.18,-0.28,-0.03,-0.02,-0.02
9.83,0.16,-0.29,-0.03,-0.02,-0.01
9.8,0.14,-0.33,-0.03,-0.02,-0.01
9.8,0.13,-0.36,-0.03,-0.02,-0.01
9.8,0.1,-0.36,-0.03,-0.02,-0.02
9.81,0.11,-0.33,-0.03,-0.02,-0.02
9.8,0.15,-0.26,-0.03,-0.02,-0.02
9.8,0.16,-0.28,-0.02,-0.02,-0.02
9.84,0.16,-0.29,-0.03,-0.02,-0.02
9.82,0.17,-0.33,-0.03,-0.02,-0.02
9.78,0.14,-0.32,-0.03,-0.02,-0.02
9.81,0.12,-0.34,-0.03,-0.02,-0.02
9.84,0.14,-0.33,-0.03,-0.02,-0.02
9.82,0.13,-0.33,-0.02,-0.02,-0.02
9.82,0.16,-0.36,-0.02,-0.02,-0.02
9.84,0.17,-0.32,-0.02,-0.02,-0.02
9.84,0.16,-0.31,-0.03,-0.02,-0.02
9.83,0.14,-0.33,-0.02,-0.02,-0.02
9.79,0.13,-0.34,-0.03,-0.02,-0.02
9.79,0.12,-0.34,-0.03,-0.02,-0.02
9.8,0.12,-0.32,-0.03,-0.02,-0.02
9.8,0.13,-0.32,-0.03,-0.02,-0.02
9.83,0.15,-0.28,-0.02,-0.02,-0.02
9.83,0.15,-0.32,-0.02,-0.02,-0.02
9.83,0.15,-0.34,-0.03,-0.02,-0.02
9.81,0.15,-0.32,-0.03,-0.02,-0.02
9.83,0.15,-0.3,-0.03,-0.02,-0.02
9.8,0.16,-0.29,-0.03,-0.02,-0.02
9.81,0.12,-0.31,-0.03,-0.02,-0.02
9.79,0.13,-0.27,-0.03,-0.02,-0.02
9.79,0.12,-0.3,-0.02,-0.02,-0.02
9.81,0.15,-0.3,-0.02,-0.02,-0.02
9.81,0.12,-0.33,-0.02,-0.02,-0.02
9.8,0.15,-0.31,-0.02,-0.02,-0.02
9.82,0.14,-0.33,-0.02,-0.02,-0.02
9.83,0.15,-0.32,-0.02,-0.02,-0.02
9.83,0.14,-0.32,-0.02,-0.02,-0.02
9.81,0.12,-0.33,-0.03,-0.02,-0.02
9.8,0.13,-0.34,-0.03,-0.02,-0.02
9.81,0.12,-0.34,-0.02,-0.02,-0.02
9.82,0.13,-0.32,-0.02,-0.02,-0.02
9.8,0.14,-0.31,-0.03,-0.02,-0.02
9.81,0.13,-0.3,-0.03,-0.02,-0.02
9.81,0.12,-0.34,-0.03,-0.02,-0.02
9.83,0.12,-0.37,-0.03,-0.02,-0.02
9.84,0.15,-0.3,-0.03,-0.02,-0.02
9.78,0.14,-0.3,-0.02,-0.02,-0.02
9.82,0.16,-0.34,-0.03,-0.02,-0.02
9.83,0.15,-0.33,-0.03,-0.02,-0.02
9.82,0.11,-0.33,-0.03,-0.02,-0.02
9.8,0.13,-0.31,-0.02,-0.02,-0.02
9.79,0.15,-0.3,-0.03,-0.02,-0.02
9.82,0.15,-0.33,-0.03,-0.02,-0.02
9.82,0.15,-0.3,-0.02,-0.02,-0.02
9.81,0.15,-0.32,-0.02,-0.02,-0.02
9.81,0.14,-0.34,-0.03,-0.02,-0.02
9.8,0.16,-0.29,-0.03,-0.02,-0.02
9.8,0.13,-0.31,-0.03,-0.02,-0.02
9.82,0.13,-0.33,-0.02,-0.02,-0.02
9.82,0.13,-0.3,-0.02,-0.02,-0.02
9.8,0.13,-0.3,-0.03,-0.02,-0.02
9.8,0.15,-0.32,-0.03,-0.02,-0.02
9.8,0.14,-0.33,-0.03,-0.02,-0.02
9.84,0.13,-0.31,-0.03,-0.02,-0.02
9.82,0.15,-0.28,-0.03,-0.02,-0.02
9.8,0.15,-0.31,-0.03,-0.02,-0.02
9.82,0.12,-0.34,-0.03,-0.02,-0.02
9.83,0.12,-0.33,-0.02,-0.02,-0.02
9.81,0.17,-0.31,-0.02,-0.02,-0.02
9.81,0.13,-0.3,-0.02,-0.02,-0.02
9.84,0.13,-0.3,-0.03,-0.02,-0.02
9.83,0.15,-0.34,-0.03,-0.02,-0.02
9.79,0.16,-0.34,-0.03,-0.02,-0.02
9.8,0.13,-0.33,-0.02,-0.02,-0.02
9.83,0.11,-0.32,-0.03,-0.02,-0.02
9.82,0.12,-0.32,-0.03,-0.02,-0.02
9.83,0.13,-0.33,-0.03,-0.02,-0.02
9.8,0.15,-0.29,-0.03,-0.02,-0.02
9.81,0.15,-0.3,-0.03,-0.02,-0.02
9.8,0.15,-0.35,-0.03,-0.02,-0.01
9.8,0.13,-0.33,-0.02,-0.02,-0.02
9.84,0.15,-0.34,-0.03,-0.02,-0.01
9.81,0.13,-0.32,-0.02,-0.02,-0.02
9.79,0.11,-0.27,-0.03,-0.02,-0.02
9.8,0.11,-0.32,-0.03,-0.02,-0.02
9.81,0.13,-0.31,-0.03,-0.02,-0.02
9.81,0.16,-0.35,-0.03,-0.02,-0.02
9.83,0.16,-0.34,-0.03,-0.02,-0.02
9.82,0.14,-0.33,-0.03,-0.02,-0.02
9.83,0.13,-0.33,-0.03,-0.02,-0.02
9.82,0.15,-0.32,-0.02,-0.02,-0.02
9.82,0.12,-0.32,-0.02,-0.02,-0.02
9.8,0.14,-0.31,-0.03,-0.02,-0.02
9.8,0.12,-0.33,-0.03,-0.02,-0.02
9.81,0.15,-0.33,-0.03,-0.02,-0.02
9.81,0.15,-0.31,-0.03,-0.02,-0.02
9.81,0.13,-0.32,-0.03,-0.02,-0.02
9.79,0.14,-0.32,-0.03,-0.02,-0.02
9.81,0.15,-0.3,-0.03,-0.02,-0.02
9.82,0.15,-0.29,-0.03,-0.02,-0.02
9.82,0.14,-0.3,-0.03,-0.02,-0.02
9.8,0.16,-0.33,-0.03,-0.02,-0.02
9.81,0.13,-0.32,-0.03,-0.02,-0.01
9.81,0.15,-0.31,-0.03,-0.02,-0.01
9.81,0.13,-0.31,-0.03,-0.02,-0.01
9.81,0.14,-0.31,-0.03,-0.02,-0.01
9.82,0.14,-0.29,-0.03,-0.02,-0.01
9.83,0.13,-0.33,-0.03,-0.02,-0.01
9.79,0.11,-0.34,-0.03,-0.02,-0.01
9.82,0.12,-0.31,-0.02,-0.02,-0.02
9.83,0.15,-0.34,-0.02,-0.02,-0.02
9.84,0.15,-0.27,-0.03,-0.02,-0.02
9.82,0.14,-0.28,-0.03,-0.02,-0.02
9.84,0.12,-0.32,-0.02,-0.02,-0.02
9.82,0.14,-0.32,-0.03,-0.02,-0.02
9.81,0.14,-0.32,-0.03,-0.02,-0.02
9.82,0.12,-0.33,-0.03,-0.02,-0.02
9.81,0.14,-0.34,-0.02,-0.02,-0.02
9.79,0.12,-0.32,-0.02,-0.02,-0.02
9.81,0.12,-0.31,-0.03,-0.02,-0.02
9.8,0.14,-0.3,-0.03,-0.02,-0.02
9.81,0.15,-0.31,-0.03,-0.02,-0.02
9.82,0.13,-0.31,-0.03,-0.02,-0.02
9.79,0.14,-0.3,-0.03,-0.02,-0.02
9.79,0.13,-0.31,-0.03,-0.02,-0.02
9.83,0.16,-0.3,-0.03,-0.02,-0.02
9.86,0.15,-0.35,-0.03,-0.02,-0.02
9.82,0.15,-0.34,-0.03,-0.02,-0.02
9.79,0.13,-0.34,-0.02,-0.02,-0.02
9.82,0.12,-0.32,-0.02,-0.02,-0.01
9.84,0.14,-0.31,-0.03,-0.02,-0.02
9.81,0.15,-0.33,-0.03,-0.02,-0.02
9.79,0.15,-0.32,-0.03,-0.02,-0.02
9.83,0.16,-0.34,-0.02,-0.02,-0.02
9.84,0.15,-0.31,-0.02,-0.02,-0.01
9.84,0.17,-0.34,-0.02,-0.02,-0.01
9.79,0.12,-0.3,-0.02,-0.02,-0.01
9.81,0.11,-0.27,-0.02,-0.02,-0.01
9.8,0.12,-0.31,-0.03,-0.02,-0.02
9.79,0.11,-0.31,-0.03,-0.02,-0.02
9.8,0.14,-0.31,-0.02,-0.02,-0.02